Folder: ds-solar-cells/Data

File: fp_activity.csv
,VOC,JSC,FF,PCE
0,687.0,10.79,0.7,5.19
13,690.0,5.79,0.7,2.8
23,500.0,9.4,0.65,3.1
48,663.0,18.01,0.7616,9.09
58,756.0,8.98,0.69,4.66
72,510.0,14.32,0.73,5.3
103,501.0,2.082,0.614,0.64
113,536.0,8.36,0.72,3.24
126,588.0,5.09,0.735,2.2
143,540.0,9.52,0.65,3.36
154,690.0,12.16,0.69,4.68
175,650.0,16.0,0.71,8.1
184,730.0,12.08,0.69,5.07
191,620.0,8.3,0.738,3.8
198,800.0,13.03,0.67,6.98
209,615.0,3.64,0.57,1.3
217,818.5,9.23,0.7597,5.74
225,748.0,14.02,0.68,7.13
232,708.0,11.69,0.653,5.4
247,404.0,4.9,0.726,1.4
256,680.0,11.19,0.6497,4.97
270,670.0,13.52,0.69,6.29
281,633.0,12.35,0.66,5.12
288,691.0,15.2,0.7,7.44
299,710.0,11.65,0.63,5.22
310,797.0,14.75,0.687,8.08
318,660.0,4.83,0.74,2.4
331,789.0,12.62,0.63,6.29
342,672.0,12.01,0.696,5.62
349,773.0,8.56,0.69,4.53
364,745.7,11.68,0.6995,6.09
373,570.0,4.7,0.78,2.1
397,673.0,12.76,0.62,5.31
407,694.0,10.84,0.724,5.4
414,681.0,11.96,0.6015,4.9
433,500.0,1.2,0.54,0.33
445,622.3,13.08,0.64,5.17
459,540.0,2.64,0.64,0.92
478,730.0,11.1,0.78,6.3
492,660.0,9.06,0.63,3.58
501,740.0,15.22,0.69,7.78
517,679.0,7.01,0.7,3.31
524,738.1,10.2,0.6881,5.2
535,675.0,5.76,0.6853,2.66
543,739.0,14.68,0.68,7.11
554,680.0,10.02,0.73,4.97
561,528.5,4.8,0.5935,1.5
571,693.0,9.17,0.5307,3.37
578,756.0,12.26,0.66,6.14
586,700.0,6.71,0.66,3.13
593,688.0,15.4,0.62,6.56
604,473.0,0.379,0.65,0.12
611,820.0,11.57,0.6826,6.7
624,758.0,3.9,0.59,1.7
635,547.0,4.31,0.692,1.63
644,750.0,9.98,0.67,4.62
658,616.0,16.2,0.61,6.1
669,660.0,15.3,0.6,6.05
678,700.0,15.5,0.62,6.7
685,589.0,7.61,0.63,2.81
697,770.0,7.06,0.74,4.0
705,670.0,10.16,0.64,4.36
718,674.0,4.2,0.66,1.88
726,740.0,4.7,0.73,2.52
735,621.0,6.2,0.67,2.6
746,620.0,10.12,0.68,4.26
754,540.0,6.3,0.76,2.58
761,432.0,1.0,0.621,0.24
772,745.0,15.2,0.71,8.09
779,660.0,9.78,0.5664,3.68
788,742.0,18.75,0.41,6.71
798,760.0,8.9,0.73,4.9
807,400.0,0.24,0.614,0.06
817,650.0,11.2,0.64,4.6
824,540.0,5.8,0.6,1.89
840,550.0,6.76,0.57,2.11
847,700.0,10.3,0.68,4.9
863,535.0,8.28,0.657,2.91
876,12.8,450.0,0.59,3.39
883,580.0,2.09,0.62,0.75
890,844.0,10.18,0.776,6.7
897,620.0,9.74,0.71,4.33
906,756.0,9.54,0.62,4.45
919,689.0,5.71,0.65,3.01
930,598.3,4.53,0.751,2.03
938,480.0,4.6,0.62,1.37
953,610.0,7.5,0.707,3.23
961,530.0,2.46,0.55,0.72
976,543.0,6.99,0.62,2.35
993,580.0,9.27,0.67,3.61
1003,592.0,14.64,0.68,5.85
1018,410.0,10.01,0.64,2.6
1026,453.0,5.62,0.7,1.79
1034,590.0,3.453,0.6519,1.56
1041,610.0,5.78,0.68,2.42
1048,617.0,8.33,0.7,3.6
1055,610.0,10.3,0.58,3.5
1062,698.0,17.14,0.694,8.3
1072,570.0,7.8,0.65,2.9
1079,710.0,11.3,0.66,5.2
1088,558.0,7.91,0.63,2.78
1096,710.0,9.6,0.71,4.9
1104,620.0,5.9,0.72,2.7
1111,640.0,8.6,0.63,3.4
1120,670.0,14.3,0.65,6.2
1132,601.0,15.48,0.709,6.6
1141,688.0,13.2,0.67,6.08
1154,608.0,14.1,0.7,6.0
1166,548.0,5.3,0.66,1.9
1176,575.0,8.76,0.46,2.37
1185,731.0,13.79,0.703,7.08
1197,607.0,6.96,0.65,2.74
1206,956.0,17.03,0.77,12.5
1213,693.0,8.11,0.719,4.04
1229,579.0,18.79,0.534,5.8
1238,692.0,8.85,0.726,4.44
1257,494.0,14.31,68.0,4.8
1270,730.0,12.9,0.67,6.23
1286,760.0,9.78,0.74,5.53
1296,717.0,9.05,0.687,4.46
1305,765.0,14.2,0.66,7.17
1318,691.6,11.96,0.6737,5.57
1330,697.0,20.85,0.666,9.67
1344,679.0,14.77,0.72,7.2
1361,810.0,13.39,0.7,7.6
1369,600.0,2.31,0.6,0.83
1378,662.0,6.45,0.69,3.0
1389,720.0,9.85,0.645,4.6
1407,907.0,14.32,0.68,8.83
1416,611.0,3.55,0.5,1.08
1430,585.0,8.97,0.73,3.83
1439,822.0,10.74,0.63,5.56
1446,683.0,9.6,0.78,5.1
1453,543.0,8.02,0.64,2.79
1468,640.0,15.5,0.63,6.27
1492,324.0,5.7,0.5,0.94
1501,833.0,16.5,0.737,10.1
1510,650.0,14.8,0.64,6.13
1517,709.0,11.71,0.7086,5.8
1527,650.0,15.6,0.6,6.04
1550,600.0,8.55,0.62,3.16
1570,625.0,14.53,0.66,6.03
1578,901.0,13.4,0.74,8.86
1601,740.0,13.51,0.63,6.3
1620,690.0,10.11,0.689,4.81
1651,616.0,9.3,0.73,4.2
1667,600.0,6.43,0.67,2.63
1676,722.0,13.42,0.66,6.42
1689,776.0,12.0,0.5627,5.24
1701,710.0,9.48,0.67,4.52
1709,480.0,1.3,0.7,0.44
1716,720.0,15.76,0.73,8.27
1724,700.0,4.62,0.62,2.0
1736,610.0,8.66,0.76,4.01
1744,596.0,8.72,0.64,3.33
1754,520.0,5.83,0.72,2.18
1769,644.0,6.9,0.68,3.02
1783,660.0,13.39,0.6,5.33
1793,541.0,5.45,0.67,1.99
1812,733.0,13.79,0.75,7.54
1827,746.0,8.96,56.82,3.8
1843,522.0,8.57,0.52,2.3
1858,775.0,11.88,0.747,6.88
1873,612.0,7.01,0.627,3.16
1888,115.0,2.7,0.36,0.113
1902,680.0,10.3,0.62,4.37
1913,680.0,11.24,0.6,4.6
1921,720.0,12.96,0.753,7.03
1928,766.0,11.7,0.756,6.78
1937,740.0,2.63,0.61,1.19
1950,750.0,14.0,0.77,8.01
1957,640.0,13.7,0.56,4.9
1965,672.0,11.9,0.731,5.9
1977,405.0,11.86,0.65,3.13
1984,509.0,9.3,0.68,3.2
1991,900.0,12.0,0.69,7.2
2013,680.0,6.8,0.72,3.33
2020,741.0,11.4,0.74,6.2
2034,680.0,12.0,0.64,5.2
2045,731.0,10.65,0.6818,5.31
2059,700.0,8.88,0.66,4.1
2074,640.0,9.21,0.68,4.01
2095,648.0,9.49,0.66,4.03
2108,680.0,9.99,0.68,4.58
2115,690.0,9.5,0.75,4.9
2129,640.0,9.21,0.75,4.4
2139,655.0,9.01,0.68,4.01
2158,240.0,1.71,0.61,0.25
2178,500.0,7.53,0.63,2.38
2190,685.0,4.68,0.7,2.24
2200,750.0,11.36,0.68,5.81
2211,600.0,7.9,0.72,3.4
2228,664.0,10.79,0.691,4.95
2236,875.0,6.67,77.0,4.48
2245,744.0,9.2,0.7559,5.18
2258,660.0,10.56,0.774,5.42
2267,770.0,9.69,0.7,5.15
2278,555.0,5.06,0.709,1.99
2286,584.0,0.98,0.771,0.45
2295,630.0,6.15,0.74,2.85
2315,722.0,11.2,0.571,4.62
2324,580.0,9.2,0.65,3.47
2338,758.0,9.4,0.6645,4.7
2366,661.0,14.49,0.723,6.94
2374,680.0,13.48,0.68,6.14
2391,660.0,10.9,0.69,4.99
2404,570.0,14.2,0.6,4.79
2411,630.0,16.0,0.63,6.15
2422,753.0,11.2,0.725,6.11
2431,548.0,2.37,0.7,0.9
2445,925.0,15.01,0.69,9.58
2455,510.0,2.98,0.65,0.99
2464,750.0,8.0,0.55,3.9
2472,600.0,0.65,0.78,0.3
2484,612.0,12.68,0.73,5.7
2492,900.0,10.72,0.73,7.1
2499,818.0,14.5,0.69,8.18
2534,887.0,8.3,0.75,11.1
2546,731.0,19.8,0.72,10.4
2558,755.0,14.83,0.72,8.1
2569,710.0,12.11,0.62,5.33
2576,450.0,1.34,0.76,0.46
2585,610.0,10.29,0.65,4.08
2594,557.0,7.3,0.76,3.2
2604,751.0,10.0,0.586,4.38
2623,640.0,16.82,0.65,6.95
2630,774.0,14.19,0.45,6.8
2642,810.0,7.0,0.64,3.6
2663,630.0,8.9,0.67,3.75
2670,95.0,1.48,0.36,0.05
2677,655.0,15.14,0.64,6.4
2690,763.0,12.93,0.69,6.82
2701,739.0,11.7,0.653,5.65
2710,670.0,16.0,0.67,7.18
2724,788.0,15.79,0.57,7.09
2741,560.0,11.6,0.66,4.5
2771,650.0,6.62,0.62,2.67
2797,560.0,7.9,0.7,3.1
2806,620.0,10.61,0.66,4.36
2815,630.0,8.2,0.73,3.76
2824,695.0,7.1,0.73,3.6
2835,724.0,9.71,0.684,4.81
2855,568.0,7.38,0.65,2.72
2878,630.0,5.0,0.67,2.1
2885,626.0,15.56,0.7,6.88
2903,373.0,6.32,0.608,1.43
2914,632.0,6.43,0.65,2.53
2939,645.0,18.75,0.538,6.51
2949,660.0,15.0,0.74,7.3
2981,635.0,17.8,0.68,7.69
3001,720.0,10.8,0.732,5.7
3023,615.0,13.77,0.705,5.97
3039,591.0,8.6,0.73,3.7
3061,861.0,12.2,0.69,7.25
3075,640.0,5.92,0.526,2.08
3092,470.0,3.51,0.63,1.03
3116,589.0,14.8,0.59,5.11
3136,775.0,15.8,0.66,8.08
3151,634.0,18.63,0.63,7.41
3165,540.0,6.85,0.64,2.35
3186,0.383,4.48,0.52,2.6
3204,492.0,14.5,0.56,4.4
3215,560.0,6.63,0.7,2.65
3230,400.0,6.98,0.56,1.54
3338,480.0,2.06,0.72,0.71
3672,333.0,7.66,0.52,1.36
3863,601.0,9.33,0.7358,6.38
3871,690.0,6.4,0.59,2.7
3953,650.0,9.44,0.7,4.34
3968,657.0,3.87,0.71,1.82
4010,800.0,13.7,0.63,7.0
4128,680.0,5.35,0.6,2.7
4177,422.0,11.12,0.557,2.61
4238,670.0,10.34,0.64,4.43
4247,650.0,4.42,0.7,2.0
4312,569.0,5.9,0.71,2.4
4320,700.0,14.22,0.6,6.03
4328,620.0,8.01,0.7,3.43
4337,541.0,6.7,0.7,2.5
4344,723.0,14.43,0.68,7.09
4353,784.0,9.99,0.782,6.12
4364,558.0,8.56,0.61,2.9
4374,637.0,11.199,0.73,5.209
4385,630.0,9.14,0.68,3.87
4392,680.0,8.64,0.71,4.15
4400,600.0,3.51,0.7662,1.61
4419,740.0,14.56,0.68,7.39
4425,641.0,12.37,0.66,5.21